Folder: super-duper-tribble/symbols

File: TGA.csv
Date,High,Low,Open,Close,Volume,Adj Close
2017-08-07,1.3,1.23,1.27,1.25,14800.0,1.18235
2017-08-15,1.22,1.18,1.19,1.18,65700.0,1.11614
2017-08-23,1.24,1.2,1.2,1.24,40600.0,1.17289
2017-08-31,1.35,1.23,1.26,1.34,60600.0,1.26748
2017-09-11,1.29,1.21,1.29,1.21,178900.0,1.14451
2017-09-19,1.17,1.12,1.13,1.15,81800.0,1.08776
2017-09-27,1.37,1.32,1.33,1.36,99300.0,1.2864
2017-10-05,1.5,1.43,1.44,1.48,56400.0,1.3999
2017-10-13,1.62,1.58,1.62,1.6,49300.0,1.51341
2017-10-23,1.6,1.53,1.6,1.57,46800.0,1.48503
2017-10-31,1.7,1.56,1.65,1.68,45700.0,1.58908
2017-11-08,1.57,1.51,1.56,1.52,20400.0,1.43774
2017-11-16,1.48,1.43,1.48,1.45,50900.0,1.37153
2017-11-27,1.53,1.46,1.51,1.47,39000.0,1.39044
2017-12-05,1.45,1.42,1.44,1.43,13700.0,1.35261
2017-12-13,1.38,1.31,1.37,1.33,75500.0,1.25802
2017-12-21,1.33,1.29,1.3,1.33,132500.0,1.25802
2018-01-02,1.48,1.44,1.47,1.46,54800.0,1.38098
2018-01-10,1.46,1.42,1.42,1.45,94700.0,1.37153
2018-01-19,1.49,1.45,1.47,1.48,33400.0,1.3999
2018-01-29,1.5,1.46,1.49,1.48,59400.0,1.3999
2018-02-06,1.4,1.36,1.4,1.4,93400.0,1.32423
2018-02-14,1.35,1.3,1.33,1.33,39400.0,1.25802
2018-02-23,1.32,1.28,1.29,1.32,9800.0,1.24856
2018-03-05,1.29,1.24,1.25,1.29,49800.0,1.22018
2018-03-13,1.34,1.28,1.28,1.34,44200.0,1.26748
2018-03-21,1.41,1.34,1.34,1.41,41900.0,1.33369
2018-03-29,1.35,1.31,1.33,1.34,47800.0,1.26748
2018-04-09,1.33,1.25,1.29,1.27,134100.0,1.20127
2018-04-17,1.42,1.37,1.39,1.4,131000.0,1.32423
2018-04-25,1.66,1.55,1.57,1.63,88300.0,1.54178
2018-05-03,1.94,1.85,1.87,1.93,144600.0,1.82555
2018-05-11,2.01,1.78,2.01,1.91,377400.0,1.80663
2018-05-21,2.84,2.35,2.38,2.64,1888900.0,2.49712
2018-05-30,2.49,2.26,2.28,2.49,483600.0,2.35524
2018-06-07,2.52,2.41,2.49,2.45,279100.0,2.3174
2018-06-15,2.3,2.24,2.3,2.24,431400.0,2.11877
2018-06-25,2.43,2.32,2.36,2.4,165700.0,2.27011
2018-07-03,3.03,2.76,2.76,2.87,940600.0,2.71467
2018-07-12,3.89,3.66,3.89,3.76,1408600.0,3.55651
2018-07-20,3.61,3.39,3.6,3.43,600000.0,3.24437
2018-07-30,3.23,3.11,3.18,3.13,359500.0,2.9606
2018-08-07,3.28,3.1,3.1,3.19,304700.0,3.01736
2018-08-15,3.12,2.83,3.11,2.93,731000.0,2.77143
2018-08-23,3.5,3.25,3.5,3.42,553800.0,3.23491
2018-08-31,3.39,3.31,3.36,3.36,143000.0,3.21063
2018-09-11,3.81,3.52,3.6,3.74,805200.0,3.57374
2018-09-19,3.41,3.35,3.4,3.39,184100.0,3.2393
2018-09-27,3.35,3.28,3.35,3.3,413900.0,3.1533
2018-10-05,3.36,3.11,3.31,3.32,1167900.0,3.17241
2018-10-15,3.15,3.0,3.1,3.02,372100.0,2.88575
2018-10-23,2.6,2.02,2.52,2.03,2656500.0,1.93976
2018-10-31,2.42,2.3,2.33,2.31,209200.0,2.20731
2018-11-08,2.37,2.14,2.3,2.22,358600.0,2.12131
2018-11-16,2.26,2.12,2.22,2.25,139400.0,2.14998
2018-11-27,2.17,1.97,2.14,2.01,248100.0,1.92065
2018-12-06,2.15,1.92,2.11,1.96,267500.0,1.87287
2018-12-14,1.88,1.77,1.85,1.78,77100.0,1.70087
2018-12-24,1.57,1.5,1.55,1.52,131900.0,1.45243
2019-01-03,1.89,1.76,1.85,1.89,73200.0,1.80598
2019-01-11,2.03,1.97,2.03,1.98,36200.0,1.89198
2019-01-22,1.89,1.75,1.8,1.76,97100.0,1.68176
2019-01-30,1.85,1.72,1.72,1.83,167500.0,1.74865
2019-02-07,1.94,1.83,1.93,1.87,23400.0,1.78687
2019-02-15,2.12,2.03,2.03,2.09,135300.0,1.99709
2019-02-26,2.06,1.96,2.03,1.98,70000.0,1.89198
2019-03-06,2.2,2.02,2.04,2.04,130700.0,1.94931
2019-03-14,2.19,2.03,2.1,2.08,106100.0,1.98753
2019-03-22,2.09,1.97,2.09,1.98,270000.0,1.89198
2019-04-01,1.94,1.82,1.93,1.86,216800.0,1.81178
2019-04-09,1.89,1.85,1.86,1.86,56600.0,1.81178
2019-04-17,1.87,1.83,1.83,1.86,58400.0,1.81178
2019-04-26,1.92,1.85,1.92,1.9,97100.0,1.85074
2019-05-06,1.88,1.85,1.88,1.87,148500.0,1.82152
2019-05-14,1.81,1.76,1.78,1.76,155500.0,1.71437
2019-05-22,1.69,1.6,1.66,1.6,102400.0,1.55852
2019-05-31,1.52,1.44,1.49,1.5,105100.0,1.46111
2019-06-10,1.56,1.47,1.54,1.49,195500.0,1.45137
2019-06-18,1.46,1.41,1.43,1.45,59300.0,1.41241
2019-06-26,1.45,1.37,1.41,1.42,220000.0,1.38319
2019-07-05,1.37,1.34,1.37,1.35,61800.0,1.315
2019-07-15,1.5,1.46,1.47,1.48,75300.0,1.44163
2019-07-23,1.46,1.43,1.45,1.45,20800.0,1.41241
2019-07-31,1.55,1.47,1.49,1.55,195400.0,1.50981
2019-08-08,1.46,1.41,1.43,1.44,134600.0,1.40267
2019-08-16,1.49,1.4,1.45,1.47,107700.0,1.43189
2019-08-26,1.38,1.32,1.37,1.33,114800.0,1.29552
2019-09-04,1.37,1.33,1.35,1.35,261900.0,1.35
2019-09-12,1.49,1.41,1.49,1.43,225100.0,1.43
2019-09-20,1.48,1.4,1.48,1.43,216400.0,1.43
2019-09-30,1.35,1.31,1.33,1.33,110100.0,1.33
2019-10-08,1.35,1.29,1.35,1.31,91700.0,1.31
2019-10-16,1.32,1.26,1.29,1.26,62500.0,1.26
2019-10-24,1.27,1.22,1.24,1.23,123700.0,1.23
2019-11-01,1.22,1.15,1.16,1.17,158300.0,1.17
2019-11-11,1.23,1.2,1.22,1.22,76700.0,1.22
2019-11-19,1.15,1.11,1.11,1.12,259800.0,1.12
2019-11-27,1.17,1.14,1.16,1.14,77100.0,1.14
2019-12-06,1.2,1.15,1.16,1.19,155700.0,1.19
2019-12-16,1.32,1.26,1.27,1.28,179400.0,1.28
2019-12-24,1.49,1.45,1.49,1.45,55100.0,1.45
2020-01-03,1.5,1.42,1.49,1.45,257400.0,1.45
2020-01-13,1.44,1.32,1.42,1.43,151600.0,1.43
2020-01-22,1.37,1.33,1.36,1.36,83400.0,1.36
2020-01-30,1.32,1.2,1.2,1.3,164600.0,1.3
2020-02-07,1.3,1.24,1.3,1.28,78300.0,1.28
2020-02-18,1.25,1.19,1.2,1.2,105200.0,1.2
2020-02-26,1.21,1.05,1.17,1.14,173100.0,1.14
2020-03-05,1.1,1.06,1.07,1.08,81800.0,1.08
2020-03-13,0.58,0.46,0.58,0.48,443700.0,0.48
2020-03-23,0.4,0.35,0.39,0.39,111700.0,0.39
2020-03-31,0.4,0.35,0.36,0.36,236500.0,0.36
2020-04-08,0.45,0.39,0.4,0.45,74400.0,0.45
2020-04-17,0.44,0.38,0.42,0.44,93100.0,0.44
2020-04-27,0.5,0.43,0.5,0.47,85000.0,0.47
2020-05-05,0.63,0.56,0.57,0.56,265000.0,0.56
2020-05-13,0.5,0.46,0.48,0.49,62200.0,0.49
2020-05-21,0.57,0.51,0.54,0.57,88300.0,0.57
2020-06-01,0.56,0.51,0.51,0.52,117900.0,0.52
2020-06-09,0.73,0.64,0.73,0.69,268500.0,0.69
2020-06-17,0.6,0.55,0.58,0.58,110300.0,0.58
2020-06-25,0.59,0.54,0.56,0.56,70600.0,0.56
2020-07-06,0.73,0.6,0.63,0.62,558700.0,0.62
2020-07-14,0.6,0.58,0.59,0.59,102500.0,0.59
2020-07-22,0.66,0.6,0.63,0.61,599100.0,0.61
2020-07-30,0.59,0.56,0.59,0.57,120800.0,0.57
2020-08-07,0.6,0.57,0.59,0.6,79800.0,0.6
2020-08-17,0.61,0.59,0.59,0.6,188900.0,0.6
2020-08-25,0.57,0.52,0.52,0.55,89700.0,0.55
2020-09-02,0.55,0.53,0.53,0.53,145000.0,0.53
2020-09-11,0.47,0.43,0.45,0.45,117800.0,0.45
2020-09-21,0.42,0.39,0.39,0.41,127300.0,0.41
2020-09-29,0.42,0.38,0.38,0.41,305500.0,0.41
2020-10-07,0.41,0.39,0.4,0.41,129000.0,0.41
2020-10-15,0.48,0.42,0.42,0.46,210700.0,0.46
2020-10-23,0.5,0.41,0.48,0.42,1523200.0,0.42
2020-11-02,0.4,0.37,0.37,0.39,152600.0,0.39
2020-11-10,0.43,0.41,0.42,0.43,270500.0,0.43
2020-11-18,0.46,0.42,0.42,0.45,347300.0,0.45
2020-11-27,0.54,0.51,0.54,0.53,321300.0,0.53
2020-12-07,0.85,0.7,0.79,0.83,2286000.0,0.83
2020-12-15,1.03,0.93,1.0,0.95,284000.0,0.95
2020-12-23,0.96,0.87,0.88,0.95,201100.0,0.95
2021-01-04,0.96,0.88,0.95,0.91,306600.0,0.91
2021-01-12,1.21,1.12,1.13,1.16,407500.0,1.16
2021-01-21,1.17,1.06,1.13,1.15,890900.0,1.15
2021-01-29,1.11,1.02,1.07,1.04,702400.0,1.04
2021-02-08,1.32,1.23,1.27,1.32,907700.0,1.32
2021-02-17,1.42,1.31,1.38,1.39,623600.0,1.39
2021-02-25,1.62,1.41,1.58,1.45,539200.0,1.45
2021-03-05,1.56,1.42,1.49,1.52,614300.0,1.52
2021-03-15,1.94,1.68,1.73,1.81,923800.0,1.81
2021-03-23,1.67,1.53,1.66,1.57,447800.0,1.57
2021-03-31,1.59,1.55,1.59,1.58,95600.0,1.58
2021-04-09,1.51,1.45,1.48,1.47,182900.0,1.47
2021-04-19,1.57,1.5,1.5,1.54,88200.0,1.54
2021-04-27,1.58,1.51,1.55,1.55,145400.0,1.55
2021-05-05,1.69,1.59,1.6,1.67,248500.0,1.67
2021-05-13,1.56,1.46,1.53,1.49,244800.0,1.49
2021-05-21,1.79,1.71,1.75,1.78,145200.0,1.78
2021-06-01,1.82,1.72,1.73,1.78,735200.0,1.78
2021-06-09,1.97,1.89,1.96,1.91,144400.0,1.91
2021-06-17,1.97,1.77,1.95,1.87,410500.0,1.87
2021-06-25,2.34,2.09,2.2,2.16,1407000.0,2.16
2021-07-06,2.04,1.88,2.03,1.94,319900.0,1.94
2021-07-14,1.88,1.74,1.84,1.8,303800.0,1.8
2021-07-22,1.74,1.65,1.72,1.7,68600.0,1.7
2021-07-30,1.73,1.63,1.67,1.68,164800.0,1.68
2021-08-09,1.72,1.59,1.65,1.71,124400.0,1.71
2021-08-17,1.66,1.52,1.61,1.55,287900.0,1.55
2021-08-25,1.83,1.72,1.75,1.82,246200.0,1.82
2021-09-02,1.87,1.79,1.79,1.83,158900.0,1.83
2021-09-13,1.92,1.84,1.87,1.87,141200.0,1.87
2021-09-21,1.94,1.86,1.92,1.94,105700.0,1.94
2021-09-29,2.23,2.01,2.18,2.02,541400.0,2.02
2021-10-07,3.13,2.77,2.89,3.04,1385200.0,3.04
2021-10-15,2.95,2.6,2.84,2.61,1056500.0,2.61
2021-10-25,2.83,2.69,2.71,2.82,560500.0,2.82
2021-11-02,2.69,2.57,2.6,2.67,410000.0,2.67
2021-11-10,3.09,2.92,3.03,3.05,962100.0,3.05
2021-11-18,3.48,3.06,3.35,3.07,943800.0,3.07
2021-11-29,3.01,2.74,3.0,2.79,1149400.0,2.79
2021-12-07,2.91,2.72,2.75,2.85,531300.0,2.85
2021-12-15,2.82,2.63,2.76,2.78,493500.0,2.78
2021-12-23,2.94,2.82,2.93,2.87,325000.0,2.87
2022-01-03,3.21,3.03,3.05,3.09,788200.0,3.09
2022-01-11,3.26,3.07,3.11,3.24,505400.0,3.24
2022-01-20,3.36,3.12,3.26,3.17,762500.0,3.17
2022-01-28,2.99,2.82,2.97,2.96,610300.0,2.96
2022-02-07,3.47,3.22,3.29,3.4,701800.0,3.4
2022-02-15,3.35,3.15,3.25,3.28,438300.0,3.28
2022-02-24,3.54,3.31,3.5,3.51,1089700.0,3.51
2022-03-04,4.08,3.7,3.7,4.01,1115300.0,4.01
2022-03-14,3.62,3.35,3.6,3.42,1111000.0,3.42
2022-03-22,3.63,3.47,3.58,3.53,674400.0,3.53
2022-03-30,3.92,3.71,3.72,3.78,466100.0,3.78
2022-04-07,3.94,3.77,3.89,3.92,396800.0,3.92
2022-04-18,5.04,4.56,4.57,4.91,2492200.0,4.91
2022-04-26,4.69,4.35,4.65,4.44,1045200.0,4.44
2022-05-04,4.48,4.17,4.48,4.36,591600.0,4.36
2022-05-12,3.98,3.69,3.96,3.77,868200.0,3.77
2022-05-20,4.46,4.21,4.25,4.34,1500600.0,4.34
2022-05-31,4.88,4.59,4.87,4.72,1147600.0,4.72
2022-06-08,5.5,5.17,5.25,5.3,1882000.0,5.3
2022-06-16,4.29,4.01,4.21,4.03,1224200.0,4.03
2022-06-27,3.71,3.52,3.53,3.6,1763000.0,3.6
2022-07-06,3.35,3.02,3.25,3.26,1042300.0,3.26
2022-07-14,3.45,3.09,3.42,3.35,5853800.0,3.35
2022-07-22,3.35,3.19,3.31,3.22,732600.0,3.22
2022-08-01,3.79,3.58,3.76,3.74,713200.0,3.74
2022-08-05,3.06,2.96,3.18,3.0161,77259.0,3.0161